TITLE,
DATA TYPE,FLUORESCENCE SPECTRUM
ORIGIN,JASCO
OWNER,
DATE,16/10/06
TIME,14:32:48
SPECTROMETER/DATA SYSTEM,
LOCALE,1033
RESOLUTION,
DELTAX,0.5
XUNITS,SEC
YUNITS,INTENSITY
FIRSTX,    0.0000
LASTX, 1200.0000
NPOINTS,    2401
FIRSTY,    53.41475
MAXY,  1623.18970
MINY,   -31.87444
XYDATA
0.0000,53.4147
0.5000,49.7565
1.0000,50.0403
1.5000,54.5871
2.0000,58.5149
2.5000,48.2983
3.0000,50.0354
3.5000,56.6611
4.0000,46.2859
4.5000,51.4656
5.0000,49.5569
5.5000,51.4802
6.0000,54.1522
6.5000,58.4689
7.0000,59.4517
7.5000,49.1386
8.0000,49.1512
8.5000,53.5258
9.0000,58.5572
9.5000,54.0588
10.0000,47.0095
10.5000,61.357
11.0000,47.3312
11.5000,58.6313
12.0000,45.8948
12.5000,46.6438
13.0000,50.2185
13.5000,47.1529
14.0000,46.4931
14.5000,54.1842
15.0000,58.9283
15.5000,53.1722
16.0000,56.7048
16.5000,56.3347
17.0000,44.1277
17.5000,57.9444
18.0000,53.6934
18.5000,48.4201
19.0000,42.8058
19.5000,54.0198
20.0000,49.4163
20.5000,55.6077
21.0000,51.7197
21.5000,47.7999
22.0000,47.386
22.5000,47.453
23.0000,54.292
23.5000,43.7064
24.0000,69.4912
24.5000,44.9308
25.0000,55.6302
25.5000,46.5963
26.0000,49.0849
26.5000,48.5235
27.0000,49.1623
27.5000,54.4158
28.0000,47.626
28.5000,43.2625
29.0000,52.39
29.5000,50.6075
30.0000,47.2999
30.5000,48.0076
31.0000,52.7976
31.5000,54.1758
32.0000,51.2366
32.5000,50.5223
33.0000,46.2409
33.5000,49.9369
34.0000,55.0041
34.5000,44.551
35.0000,49.7085
35.5000,49.1029
36.0000,45.7685
36.5000,51.935
37.0000,56.7863
37.5000,47.1078
38.0000,46.2885
38.5000,45.9266
39.0000,45.6512
39.5000,56.2816
40.0000,44.7658
40.5000,48.0955
41.0000,55.2879
41.5000,51.3768
42.0000,47.2788
42.5000,46.1316
43.0000,48.6433
43.5000,48.8913
44.0000,45.3608
44.5000,51.2561
45.0000,45.3264
45.5000,44.8154
46.0000,53.8996
46.5000,52.4622
47.0000,53.1595
47.5000,48.5783
48.0000,49.0975
48.5000,47.7793
49.0000,48.3264
49.5000,46.9646
50.0000,49.5584
50.5000,44.343
51.0000,51.9386
51.5000,51.2588
52.0000,55.2105
52.5000,63.379
53.0000,44.3017
53.5000,50.8743
54.0000,46.53
54.5000,46.5142
55.0000,48.8388
55.5000,46.0269
56.0000,44.2927
56.5000,64.3537
57.0000,54.6299
57.5000,48.2681
58.0000,51.9788
58.5000,46.6956
59.0000,52.4402
59.5000,47.6292
60.0000,47.7734
60.5000,44.0087
61.0000,47.95
61.5000,-31.8744
62.0000,-0.578772
62.5000,-0.345158
63.0000,-0.175765
63.5000,-0.0394857
64.0000,-0.0380589
64.5000,0.12596
65.0000,-0.104618
65.5000,-0.0875384
66.0000,154.516
66.5000,144.108
67.0000,139.303
67.5000,146.864
68.0000,137.55
68.5000,138.968
69.0000,141.223
69.5000,136.276
70.0000,132.666
70.5000,133.303
71.0000,142.202
71.5000,131.576
72.0000,136.648
72.5000,125.722
73.0000,135.411
73.5000,131.709
74.0000,131.439
74.5000,135.163
75.0000,132.2
75.5000,129.222
76.0000,130.788
76.5000,127.246
77.0000,139.096
77.5000,138.634
78.0000,133.723
78.5000,132.269
79.0000,122.162
79.5000,126.72
80.0000,126.155
80.5000,136.951
81.0000,132.896
81.5000,128.614
82.0000,127.204
82.5000,128.005
83.0000,130.719
83.5000,126.699
84.0000,128.576
84.5000,139.665
85.0000,132.323
85.5000,132.931
86.0000,124.257
86.5000,128.968
87.0000,122.467
87.5000,124.784
88.0000,128.129
88.5000,125.685
89.0000,127.118
89.5000,143.823
90.0000,128.137
90.5000,125.04
91.0000,123.097
91.5000,132.649
92.0000,127.105
92.5000,125.514
93.0000,136.367
93.5000,123.359
94.0000,138.234
94.5000,125.716
95.0000,126.527
95.5000,123.535
96.0000,124.177
96.5000,129.165
97.0000,125.285
97.5000,124.962
98.0000,129.356
98.5000,123.672
99.0000,132.217
99.5000,126.989
100.0000,122.623
100.5000,122.295
101.0000,126.381
101.5000,124.262
102.0000,130.04
102.5000,124.454
103.0000,126.291
103.5000,138.347
104.0000,124.427
104.5000,130.787
105.0000,124.186
105.5000,130.773
106.0000,126.886
106.5000,126.439
107.0000,125.704
107.5000,126.755
108.0000,124.42
108.5000,127.108
109.0000,128.132
109.5000,126.474
110.0000,126.681
110.5000,120.496
111.0000,143.173
111.5000,121.963
112.0000,124.106
112.5000,125.73
113.0000,126.474
113.5000,122.02
114.0000,122.281
114.5000,134.176
115.0000,123.123
115.5000,122.881
116.0000,124.797
116.5000,123.08
117.0000,124.628
117.5000,124.152
118.0000,124.623
118.5000,125.979
119.0000,126.74
119.5000,121.887
120.0000,125.75
120.5000,125.074
121.0000,124.084
121.5000,-27.2099
122.0000,-0.574667
122.5000,-0.341313
123.0000,-0.0190664
123.5000,0.0761673
124.0000,0.117578
124.5000,0.10963
125.0000,-0.0275084
125.5000,0.150988
126.0000,-0.0778584
126.5000,46.9252
127.0000,162.805
127.5000,164.899
128.0000,172.627
128.5000,164.938
129.0000,170.408
129.5000,167.91
130.0000,166.369
130.5000,170.387
131.0000,169.191
131.5000,164.068
132.0000,174.747
132.5000,168.863
133.0000,169.442
133.5000,175.99
134.0000,171.128
134.5000,173.653
135.0000,176.135
135.5000,169.822
136.0000,169.922
136.5000,176.475
137.0000,175.936
137.5000,176.645
138.0000,169.89
138.5000,171.85
139.0000,174.64
139.5000,173.486
140.0000,175.53
140.5000,173.718
141.0000,174.097
141.5000,171.849
142.0000,177.545
142.5000,175.042
143.0000,174.195
143.5000,178.021
144.0000,174.403
144.5000,181.58
145.0000,179.951
145.5000,179.379
146.0000,178.912
146.5000,178.155
147.0000,184.082
147.5000,177.868
148.0000,181.397
148.5000,179.259
149.0000,188.306
149.5000,180.608
150.0000,183.103
150.5000,185.596
151.0000,180.762
151.5000,178.576
152.0000,181.73
152.5000,181.797
153.0000,179.414
153.5000,184.258
154.0000,180.818
154.5000,179.743
155.0000,183.063
155.5000,187.609
156.0000,178.663
156.5000,178.972
157.0000,180.891
157.5000,181.265
158.0000,187.141
158.5000,186.878
159.0000,186.833
159.5000,176.935
160.0000,185.825
160.5000,181.442
161.0000,180.471
161.5000,182.381
162.0000,185.225
162.5000,180.973
163.0000,187.774
163.5000,182.352
164.0000,186.973
164.5000,179.237
165.0000,186.266
165.5000,195.21
166.0000,187.844
166.5000,190.694
167.0000,185.35
167.5000,184.39
168.0000,194.446
168.5000,184.298
169.0000,187.016
169.5000,186.273
170.0000,186.051
170.5000,186.864
171.0000,189.597
171.5000,183.729
172.0000,185.153
172.5000,189.934
173.0000,183.187
173.5000,186.608
174.0000,191
174.5000,197.855
175.0000,187.641
175.5000,188.004
176.0000,188.231
176.5000,195.795
177.0000,189.156
177.5000,206.144
178.0000,189.749
178.5000,183.87
179.0000,195.623
179.5000,198.791
180.0000,197.019
180.5000,188.448
181.0000,189.063
181.5000,209.181
182.0000,192.841
182.5000,193.51
183.0000,201.688
183.5000,193.53
184.0000,189.523
184.5000,207.01
185.0000,195.007
185.5000,188.238
186.0000,192.653
186.5000,194.565
187.0000,189.343
187.5000,187.991
188.0000,196.245
188.5000,190.374
189.0000,187.91
189.5000,195.627
190.0000,187.623
190.5000,197.784
191.0000,190.431
191.5000,193.982
192.0000,187.87
192.5000,194.474
193.0000,191.046
193.5000,188.756
194.0000,199.204
194.5000,188.618
195.0000,190.752
195.5000,190.862
196.0000,191.455
196.5000,193.929
197.0000,191.991
197.5000,194.346
198.0000,193.26
198.5000,189.272
199.0000,194.51
199.5000,190.383
200.0000,198.888
200.5000,193.135
201.0000,197.376
201.5000,190.023
202.0000,191.142
202.5000,191.237
203.0000,192.827
203.5000,194.533
204.0000,191.568
204.5000,195.944
205.0000,196.924
205.5000,193.085
206.0000,196.249
206.5000,202.443
207.0000,194.472
207.5000,196.021
208.0000,198.609
208.5000,195.14
209.0000,206.246
209.5000,195.512
210.0000,196.176
210.5000,191.956
211.0000,196.259
211.5000,196.544
212.0000,194.318
212.5000,195.564
213.0000,192.416
213.5000,195.829
214.0000,200.995
214.5000,197.128
215.0000,191.273
215.5000,203.232
216.0000,191.958
216.5000,195.505
217.0000,191.633
217.5000,196.582
218.0000,197.882
218.5000,191.922
219.0000,195.834
219.5000,199.917
220.0000,194.074
220.5000,195.714
221.0000,197.917
221.5000,194.32
222.0000,194.844
222.5000,200.172
223.0000,194.872
223.5000,196.626
224.0000,197.54
224.5000,197.334
225.0000,195.745
225.5000,200.063
226.0000,198.145
226.5000,193.856
227.0000,196.379
227.5000,196.747
228.0000,198.846
228.5000,197.316
229.0000,200.145
229.5000,202.55
230.0000,199.996
230.5000,203.636
231.0000,195.102
231.5000,200.379
232.0000,199.566
232.5000,200.291
233.0000,195.554
233.5000,208.097
234.0000,195.724
234.5000,200.937
235.0000,200.271
235.5000,197.659
236.0000,203.497
236.5000,196.381
237.0000,214.679
237.5000,207.853
238.0000,202.468
238.5000,232.387
239.0000,196.999
239.5000,210.628
240.0000,211.886
240.5000,198.876
241.0000,201.285
241.5000,203.03
242.0000,208.93
242.5000,202.755
243.0000,197.348
243.5000,205.572
244.0000,199.983
244.5000,204.42
245.0000,203.782
245.5000,201.435
246.0000,210.09
246.5000,203.64
247.0000,196.934
247.5000,210.993
248.0000,200.824
248.5000,204.792
249.0000,200.401
249.5000,207.529
250.0000,210.644
250.5000,228.924
251.0000,197.229
251.5000,200.479
252.0000,208.208
252.5000,203.687
253.0000,211.014
253.5000,198.3
254.0000,200.353
254.5000,202.932
255.0000,202.795
255.5000,202.198
256.0000,197.668
256.5000,201.123
257.0000,213.525
257.5000,199.507
258.0000,201.347
258.5000,201.635
259.0000,202.258
259.5000,195.834
260.0000,198.148
260.5000,200.241
261.0000,201.61
261.5000,203.853
262.0000,198.062
262.5000,207.039
263.0000,199.669
263.5000,203.758
264.0000,204.32
264.5000,210.326
265.0000,212.094
265.5000,202.03
266.0000,200.402
266.5000,198.038
267.0000,204.317
267.5000,204.234
268.0000,221.349
268.5000,199.697
269.0000,195.73
269.5000,199.517
270.0000,212.583
270.5000,205.991
271.0000,198.135
271.5000,199.574
272.0000,199.742
272.5000,214.925
273.0000,203.629
273.5000,206.763
274.0000,199.33
274.5000,206.537
275.0000,199.793
275.5000,200.012
276.0000,203.368
276.5000,202.958
277.0000,203.514
277.5000,214.079
278.0000,205.125
278.5000,201.525
279.0000,200.385
279.5000,219.916
280.0000,205.108
280.5000,201.056
281.0000,204.185
281.5000,198.891
282.0000,205.332
282.5000,204.032
283.0000,206.87
283.5000,201.585
284.0000,202.245
284.5000,198.237
285.0000,204.288
285.5000,207.57
286.0000,207.288
286.5000,201.21
287.0000,200.483
287.5000,200.356
288.0000,203.93
288.5000,208.549
289.0000,205.152
289.5000,200.505
290.0000,201.907
290.5000,200.117
291.0000,202.837
291.5000,204.64
292.0000,201.688
292.5000,211.942
293.0000,200.693
293.5000,207.68
294.0000,211.386
294.5000,205.123
295.0000,205.23
295.5000,211.439
296.0000,203.334
296.5000,201.882
297.0000,200.849
297.5000,207.093
298.0000,204.389
298.5000,200.838
299.0000,204.531
299.5000,202.358
300.0000,204.289
300.5000,206.945
301.0000,199.665
301.5000,204.989
302.0000,201.586
302.5000,201.397
303.0000,202.418
303.5000,208.334
304.0000,204.918
304.5000,202.051
305.0000,213.536
305.5000,202.886
306.0000,220.222
306.5000,205.864
307.0000,207.847
307.5000,207.061
308.0000,205.391
308.5000,201.896
309.0000,202.225
309.5000,206.198
310.0000,203.368
310.5000,199.394
311.0000,202.594
311.5000,204.725
312.0000,204.192
312.5000,209.394
313.0000,203.818
313.5000,203.252
314.0000,204.717
314.5000,201.762
315.0000,212.537
315.5000,201.512
316.0000,200.369
316.5000,201.411
317.0000,203.556
317.5000,198.665
318.0000,202.924
318.5000,203.113
319.0000,204.466
319.5000,205.683
320.0000,209.127
320.5000,205.495
321.0000,202.394
321.5000,215.093
322.0000,205.417
322.5000,201.603
323.0000,208.604
323.5000,200.144
324.0000,205.699
324.5000,203.72
325.0000,202.104
325.5000,203.219
326.0000,202.918
326.5000,203.608
327.0000,202.351
327.5000,206.427
328.0000,204.105
328.5000,204.174
329.0000,203.025
329.5000,206.33
330.0000,209.999
330.5000,202.266
331.0000,212.486
331.5000,204.966
332.0000,208.268
332.5000,204.842
333.0000,205.281
333.5000,203.605
334.0000,201.928
334.5000,204.197
335.0000,205.528
335.5000,212.257
336.0000,203.536
336.5000,210.115
337.0000,208.264
337.5000,212.345
338.0000,211.899
338.5000,204.527
339.0000,207.635
339.5000,206.313
340.0000,203.397
340.5000,203.092
341.0000,204.163
341.5000,206.644
342.0000,203.827
342.5000,205.879
343.0000,207.563
343.5000,214.931
344.0000,205.118
344.5000,206.606
345.0000,213.138
345.5000,209.536
346.0000,205.66
346.5000,206.052
347.0000,204.056
347.5000,206.122
348.0000,206.657
348.5000,206.255
349.0000,210.525
349.5000,208.248
350.0000,211.818
350.5000,205.519
351.0000,212.647
351.5000,212.1
352.0000,205.195
352.5000,209.223
353.0000,209.276
353.5000,208.377
354.0000,206.598
354.5000,207.477
355.0000,212.565
355.5000,206.233
356.0000,204.645
356.5000,208.534
357.0000,205.929
357.5000,205.325
358.0000,205.76
358.5000,211.775
359.0000,208.695
359.5000,204.488
360.0000,204.104
360.5000,207.717
361.0000,213.547
361.5000,207.411
362.0000,206.762
362.5000,205.543
363.0000,210.903
363.5000,206.778
364.0000,206.684
364.5000,206.835
365.0000,211.25
365.5000,208.232
366.0000,209.738
366.5000,205.227
367.0000,209.239
367.5000,206.38
368.0000,207.074
368.5000,220.429
369.0000,208.272
369.5000,222.625
370.0000,212.37
370.5000,210.253
371.0000,206.958
371.5000,213.596
372.0000,209.604
372.5000,206.709
373.0000,208.513
373.5000,214.367
374.0000,209.477
374.5000,206.21
375.0000,209.225
375.5000,208.101
376.0000,208.563
376.5000,206.256
377.0000,206.739
377.5000,208.676
378.0000,213.02
378.5000,211.566
379.0000,209.783
379.5000,213.095
380.0000,206.027
380.5000,208.102
381.0000,212.408
381.5000,207.94
382.0000,209.766
382.5000,207.629
383.0000,205.18
383.5000,211.075
384.0000,207.345
384.5000,207.308
385.0000,205.829
385.5000,206.944
386.0000,212.805
386.5000,204.628
387.0000,211.995
387.5000,210.728
388.0000,208.009
388.5000,209.879
389.0000,205.962
389.5000,206.232
390.0000,208.604
390.5000,209.5
391.0000,205.869
391.5000,215.642
392.0000,207.399
392.5000,205.473
393.0000,210.827
393.5000,212.322
394.0000,208.383
394.5000,215.911
395.0000,206.581
395.5000,210.382
396.0000,211.115
396.5000,205.811
397.0000,212.634
397.5000,209.304
398.0000,212.45
398.5000,214.214
399.0000,208.259
399.5000,206.644
400.0000,212.486
400.5000,212.304
401.0000,207.322
401.5000,209.358
402.0000,205.147
402.5000,208.733
403.0000,207.334
403.5000,211.04
404.0000,207.594
404.5000,209.875
405.0000,210.717
405.5000,215.22
406.0000,209.666
406.5000,209
407.0000,208.468
407.5000,207.945
408.0000,211.902
408.5000,217.36
409.0000,209.444
409.5000,212.524
410.0000,209.241
410.5000,208.996
411.0000,212.225
411.5000,208.155
412.0000,211.239
412.5000,208.341
413.0000,207.294
413.5000,210.261
414.0000,211.147
414.5000,215.885
415.0000,211.29
415.5000,214.496
416.0000,209.295
416.5000,211.604
417.0000,213.044
417.5000,211.591
418.0000,210.236
418.5000,218.915
419.0000,212.074
419.5000,212.546
420.0000,208.537
420.5000,211.052
421.0000,209.079
421.5000,211.735
422.0000,213.143
422.5000,211.144
423.0000,208.635
423.5000,210.602
424.0000,207.347
424.5000,209.015
425.0000,210.469
425.5000,214.51
426.0000,213.863
426.5000,213.082
427.0000,217.276
427.5000,215.362
428.0000,211.773
428.5000,210.38
429.0000,208.891
429.5000,208.134
430.0000,213.897
430.5000,214.825
431.0000,210.953
431.5000,209.377
432.0000,208.301
432.5000,211.8
433.0000,214.38
433.5000,209.019
434.0000,211.241
434.5000,213.399
435.0000,207.664
435.5000,211.419
436.0000,214.319
436.5000,208.825
437.0000,217.625
437.5000,212.264
438.0000,210.934
438.5000,208.513
439.0000,210.853
439.5000,213.123
440.0000,211.959
440.5000,212.069
441.0000,215.303
441.5000,217.278
442.0000,216.259
442.5000,211.467
443.0000,208.619
443.5000,210.24
444.0000,213.555
444.5000,213.539
445.0000,212.191
445.5000,217.405
446.0000,207.251
446.5000,211.217
447.0000,213.679
447.5000,209.841
448.0000,209.861
448.5000,210.884
449.0000,211.28
449.5000,211.806
450.0000,217.489
450.5000,209.559
451.0000,219.003
451.5000,216.319
452.0000,219.605
452.5000,211.928
453.0000,214.591
453.5000,209.034
454.0000,222.685
454.5000,212.235
455.0000,214.571
455.5000,217.52
456.0000,212.173
456.5000,213.973
457.0000,213.048
457.5000,218.581
458.0000,210.805
458.5000,211.506
459.0000,216.035
459.5000,219.591
460.0000,209.596
460.5000,217.385
461.0000,220.426
461.5000,211.376
462.0000,215.21
462.5000,209.994
463.0000,214.035
463.5000,210.154
464.0000,211.347
464.5000,208.345
465.0000,212.491
465.5000,216.226
466.0000,208.381
466.5000,213.289
467.0000,208.095
467.5000,212.53
468.0000,209.868
468.5000,211.176
469.0000,215.47
469.5000,211.095
470.0000,215.03
470.5000,213.93
471.0000,214.999
471.5000,214.078
472.0000,214.142
472.5000,213.747
473.0000,213.873
473.5000,215.133
474.0000,214.411
474.5000,214.16
475.0000,211.785
475.5000,214.956
476.0000,214.374
476.5000,214.902
477.0000,215.872
477.5000,209.7
478.0000,209.579
478.5000,214.203
479.0000,210.997
479.5000,217.182
480.0000,216.833
480.5000,213.935
481.0000,211.63
481.5000,210.927
482.0000,217.287
482.5000,208.497
483.0000,215.843
483.5000,214.726
484.0000,211.02
484.5000,210.423
485.0000,221.06
485.5000,216.796
486.0000,215.651
486.5000,224.18
487.0000,210.928
487.5000,217.849
488.0000,210.074
488.5000,210.921
489.0000,210.77
489.5000,220.566
490.0000,212.299
490.5000,211.115
491.0000,211.102
491.5000,220.593
492.0000,209.634
492.5000,214.408
493.0000,211.323
493.5000,216.106
494.0000,213.886
494.5000,211.364
495.0000,212.675
495.5000,221.118
496.0000,208.829
496.5000,215.453
497.0000,212.481
497.5000,216.813
498.0000,214.773
498.5000,225.115
499.0000,214.7
499.5000,218.922
500.0000,211.942
500.5000,212.07
501.0000,214.55
501.5000,213.409
502.0000,210.879
502.5000,217.39
503.0000,213.66
503.5000,212.087
504.0000,212.769
504.5000,224.246
505.0000,212.887
505.5000,212.431
506.0000,213.894
506.5000,215.368
507.0000,211.844
507.5000,221.685
508.0000,212.337
508.5000,215.14
509.0000,210.296
509.5000,215.837
510.0000,210.476
510.5000,212.154
511.0000,214.193
511.5000,217.809
512.0000,213.099
512.5000,215.707
513.0000,210.998
513.5000,214.789
514.0000,213.346
514.5000,215.425
515.0000,211.652
515.5000,216.402
516.0000,213.505
516.5000,213.214
517.0000,224.372
517.5000,214.012
518.0000,213.577
518.5000,212.205
519.0000,213.997
519.5000,215.717
520.0000,214.361
520.5000,216.078
521.0000,212.86
521.5000,218.634
522.0000,213.106
522.5000,215.979
523.0000,212.578
523.5000,213.385
524.0000,215.047
524.5000,220.161
525.0000,212.997
525.5000,218.463
526.0000,212.551
526.5000,211.789
527.0000,212.675
527.5000,210.55
528.0000,218.346
528.5000,215.464
529.0000,220.805
529.5000,217.651
530.0000,211.026
530.5000,225.978
531.0000,221.663
531.5000,218.752
532.0000,209.296
532.5000,216.327
533.0000,219.023
533.5000,213.667
534.0000,212.753
534.5000,211.005
535.0000,222.497
535.5000,215.812
536.0000,218.107
536.5000,223.728
537.0000,218.002
537.5000,219.29
538.0000,216.785
538.5000,222.997
539.0000,212.149
539.5000,215.66
540.0000,216.457
540.5000,215.496
541.0000,225.029
541.5000,218.581
542.0000,219.85
542.5000,212.447
543.0000,215.364
543.5000,219.84
544.0000,220.667
544.5000,225.18
545.0000,215.756
545.5000,217.929
546.0000,211.985
546.5000,213.187
547.0000,217.269
547.5000,225.072
548.0000,219.579
548.5000,214.471
549.0000,215.35
549.5000,212.489
550.0000,212.464
550.5000,216.147
551.0000,222.625
551.5000,220.695
552.0000,215.371
552.5000,212.817
553.0000,218.697
553.5000,213.533
554.0000,220.733
554.5000,222.454
555.0000,211.603
555.5000,213.037
556.0000,219.82
556.5000,221.118
557.0000,219.814
557.5000,223.255
558.0000,212.46
558.5000,212.908
559.0000,214.342
559.5000,219.766
560.0000,214.029
560.5000,222.875
561.0000,219.753
561.5000,219.335
562.0000,216.476
562.5000,223.351
563.0000,214.656
563.5000,212.51
564.0000,215.702
564.5000,217.998
565.0000,216.691
565.5000,213.59
566.0000,219.432
566.5000,225.885
567.0000,218.247
567.5000,216.371
568.0000,216.399
568.5000,213.791
569.0000,216.735
569.5000,215.046
570.0000,212.674
570.5000,215.947
571.0000,215.42
571.5000,217.345
572.0000,222.987
572.5000,213.928
573.0000,218.528
573.5000,215.249
574.0000,213.829
574.5000,213.437
575.0000,214.229
575.5000,219.003
576.0000,213.628
576.5000,217.435
577.0000,217.055
577.5000,223.879
578.0000,216.589
578.5000,212.959
579.0000,216.675
579.5000,215.394
580.0000,215.94
580.5000,214.257
581.0000,215.401
581.5000,213.03
582.0000,217.329
582.5000,215.518
583.0000,217.768
583.5000,214.473
584.0000,215.321
584.5000,224.409
585.0000,218.34
585.5000,215.27
586.0000,217.414
586.5000,218.428
587.0000,217.511
587.5000,218.88
588.0000,220.043
588.5000,217.586
589.0000,220.852
589.5000,214.168
590.0000,215.109
590.5000,228.421
591.0000,219.711
591.5000,220.776
592.0000,215.742
592.5000,220.261
593.0000,220.404
593.5000,222.11
594.0000,213.933
594.5000,220.676
595.0000,218.276
595.5000,222.247
596.0000,214.699
596.5000,215.982
597.0000,214.836
597.5000,216.514
598.0000,219.861
598.5000,215.24
599.0000,215.079
599.5000,216.475
600.0000,215.742
600.5000,214.482
601.0000,222.331
601.5000,228.566
602.0000,231.041
602.5000,218.123
603.0000,221.536
603.5000,217.909
604.0000,215.876
604.5000,224.771
605.0000,216.612
605.5000,218.239
606.0000,216.233
606.5000,218.941
607.0000,218.461
607.5000,216.953
608.0000,216.617
608.5000,218.787
609.0000,216.668
609.5000,224.121
610.0000,214.979
610.5000,226.828
611.0000,222.362
611.5000,217.982
612.0000,217.949
612.5000,217.37
613.0000,218.256
613.5000,216.869
614.0000,217.536
614.5000,218.651
615.0000,221.887
615.5000,219.026
616.0000,225.848
616.5000,215.899
617.0000,219.607
617.5000,223.024
618.0000,224.591
618.5000,218.984
619.0000,216.509
619.5000,215.036
620.0000,218.932
620.5000,223.876
621.0000,215.38
621.5000,220.467
622.0000,223.464
622.5000,220.792
623.0000,215.995
623.5000,216.965
624.0000,218.238
624.5000,221.831
625.0000,215.524
625.5000,219.096
626.0000,218.078
626.5000,217.946
627.0000,215.169
627.5000,214.006
628.0000,221.736
628.5000,215.96
629.0000,220.052
629.5000,217.576
630.0000,215.748
630.5000,221.564
631.0000,222.819
631.5000,225.028
632.0000,224.445
632.5000,224.778
633.0000,219.094
633.5000,223.593
634.0000,214.859
634.5000,222.268
635.0000,220.354
635.5000,217.811
636.0000,219.916
636.5000,221.325
637.0000,218.166
637.5000,222.255
638.0000,216.65
638.5000,222.049
639.0000,218.863
639.5000,217.267
640.0000,215.927
640.5000,218.296
641.0000,224.195
641.5000,217.659
642.0000,217.584
642.5000,219.038
643.0000,220.843
643.5000,222.79
644.0000,218.123
644.5000,219.598
645.0000,217.151
645.5000,225.686
646.0000,217.885
646.5000,223.162
647.0000,215.919
647.5000,222.221
648.0000,222.85
648.5000,220.629
649.0000,218.746
649.5000,222.521
650.0000,216.757
650.5000,229.319
651.0000,220.328
651.5000,221.116
652.0000,216.149
652.5000,228.015
653.0000,217.366
653.5000,225.853
654.0000,217.243
654.5000,214.842
655.0000,219.522
655.5000,217.459
656.0000,217.141
656.5000,219.86
657.0000,218.456
657.5000,221.2
658.0000,219.789
658.5000,216.703
659.0000,222.193
659.5000,220.152
660.0000,223.809
660.5000,218.765
661.0000,216.472
661.5000,220.641
662.0000,221.955
662.5000,220.51
663.0000,219.679
663.5000,220.748
664.0000,224.655
664.5000,219.255
665.0000,224.741
665.5000,222.09
666.0000,218.58
666.5000,224.462
667.0000,221.875
667.5000,219.26
668.0000,224.908
668.5000,229.396
669.0000,215.284
669.5000,223.217
670.0000,215.491
670.5000,222.041
671.0000,218.282
671.5000,216.282
672.0000,225.254
672.5000,225.875
673.0000,219.863
673.5000,218.811
674.0000,219.653
674.5000,227.907
675.0000,219.045
675.5000,223.832
676.0000,230.048
676.5000,220.816
677.0000,220.949
677.5000,222.757
678.0000,220.53
678.5000,218.421
679.0000,219.866
679.5000,221.615
680.0000,217.049
680.5000,225.536
681.0000,219.485
681.5000,219.26
682.0000,219.054
682.5000,219.884
683.0000,219.455
683.5000,222.944
684.0000,227.231
684.5000,226.152
685.0000,220.509
685.5000,221.29
686.0000,217.913
686.5000,217.757
687.0000,229.965
687.5000,220.426
688.0000,223.082
688.5000,216.729
689.0000,221.008
689.5000,221.582
690.0000,225.715
690.5000,222.452
691.0000,229.309
691.5000,216.567
692.0000,224.59
692.5000,222.076
693.0000,219.585
693.5000,227.54
694.0000,218.352
694.5000,222.02
695.0000,229.254
695.5000,219.614
696.0000,225.113
696.5000,219.447
697.0000,221.9
697.5000,225.857
698.0000,220.748
698.5000,220.009
699.0000,215.832
699.5000,224.934
700.0000,220.9
700.5000,220.298
701.0000,230.484
701.5000,218.164
702.0000,224.031
702.5000,217.723
703.0000,220.697
703.5000,221.254
704.0000,218.303
704.5000,221.244
705.0000,219.011
705.5000,219.489
706.0000,217.562
706.5000,222.023
707.0000,221.564
707.5000,220.1
708.0000,222.616
708.5000,227.21
709.0000,222.555
709.5000,220.714
710.0000,217.294
710.5000,217.204
711.0000,223.63
711.5000,222.519
712.0000,217.983
712.5000,220.884
713.0000,220.135
713.5000,217.718
714.0000,218.467
714.5000,218.024
715.0000,219.849
715.5000,221.169
716.0000,223.885
716.5000,221.3
717.0000,220.973
717.5000,223.714
718.0000,218.716
718.5000,224.253
719.0000,219.994
719.5000,221.251
720.0000,218.514
720.5000,222.108
721.0000,219.826
721.5000,222.628
722.0000,219.396
722.5000,220.18
723.0000,219.991
723.5000,217.459
724.0000,219.022
724.5000,217.668
725.0000,220.873
725.5000,220.083
726.0000,220.616
726.5000,224.882
727.0000,220.285
727.5000,218.71
728.0000,220.72
728.5000,230.534
729.0000,221.807
729.5000,224.291
730.0000,220.27
730.5000,218.237
731.0000,221.316
731.5000,226.066
732.0000,224.357
732.5000,224.406
733.0000,225.789
733.5000,224.224
734.0000,219.225
734.5000,229.005
735.0000,225.547
735.5000,225.64
736.0000,218.609
736.5000,228.721
737.0000,223.42
737.5000,220.828
738.0000,220.561
738.5000,227.016
739.0000,223.538
739.5000,224.457
740.0000,217.562
740.5000,223.643
741.0000,224.015
741.5000,224.157
742.0000,222.583
742.5000,221.913
743.0000,221.405
743.5000,231.227
744.0000,222.254
744.5000,220.721
745.0000,231.487
745.5000,221.412
746.0000,219.578
746.5000,223.891
747.0000,220.237
747.5000,219.587
748.0000,221.126
748.5000,219.141
749.0000,228.958
749.5000,221.937
750.0000,221.057
750.5000,220.149
751.0000,224.342
751.5000,223.155
752.0000,222.587
752.5000,222.652
753.0000,218.431
753.5000,221.315
754.0000,219.976
754.5000,222.247
755.0000,223.398
755.5000,220.956
756.0000,221.021
756.5000,222.237
757.0000,220.549
757.5000,225.895
758.0000,221.42
758.5000,223.915
759.0000,218.956
759.5000,225.331
760.0000,219.257
760.5000,220.343
761.0000,220.289
761.5000,220.081
762.0000,223.299
762.5000,228.017
763.0000,221.342
763.5000,225.522
764.0000,220.384
764.5000,224.57
765.0000,230.892
765.5000,225.299
766.0000,219.77
766.5000,229.563
767.0000,227.565
767.5000,221.28
768.0000,220.915
768.5000,223.388
769.0000,222.031
769.5000,219.607
770.0000,219.903
770.5000,222.967
771.0000,225.562
771.5000,222.622
772.0000,219.366
772.5000,224.911
773.0000,225.494
773.5000,223.256
774.0000,223.025
774.5000,226.428
775.0000,223.58
775.5000,228.628
776.0000,229.512
776.5000,226.224
777.0000,221.216
777.5000,228.812
778.0000,220.128
778.5000,219.297
779.0000,224.385
779.5000,225.452
780.0000,224.157
780.5000,220.865
781.0000,224.465
781.5000,235.191
782.0000,222.709
782.5000,220.326
783.0000,237.095
783.5000,219.184
784.0000,226.467
784.5000,226.294
785.0000,218.533
785.5000,223.646
786.0000,224.82
786.5000,222.904
787.0000,229.42
787.5000,225.896
788.0000,223.846
788.5000,225.414
789.0000,228.193
789.5000,221.426
790.0000,222.55
790.5000,223.563
791.0000,229.498
791.5000,223.252
792.0000,227.737
792.5000,224.385
793.0000,238.942
793.5000,222.355
794.0000,220.584
794.5000,222.476
795.0000,222.635
795.5000,229.598
796.0000,221.599
796.5000,227.183
797.0000,227.512
797.5000,228.929
798.0000,223.86
798.5000,221.022
799.0000,224.022
799.5000,227.684
800.0000,222.146
800.5000,229.08
801.0000,226.449
801.5000,224.06
802.0000,223.597
802.5000,224.914
803.0000,226.886
803.5000,229.985
804.0000,223.656
804.5000,227.167
805.0000,224.287
805.5000,229.377
806.0000,224.289
806.5000,225.028
807.0000,221.378
807.5000,223.689
808.0000,222.211
808.5000,224.568
809.0000,223.519
809.5000,228.286
810.0000,222.575
810.5000,228.735
811.0000,221.083
811.5000,233.344
812.0000,221.785
812.5000,229.768
813.0000,225.867
813.5000,224.659
814.0000,228.954
814.5000,221.141
815.0000,225.814
815.5000,220.16
816.0000,227.587
816.5000,232.648
817.0000,221.929
817.5000,233.302
818.0000,222.596
818.5000,230.447
819.0000,225.051
819.5000,221.57
820.0000,227.572
820.5000,223.964
821.0000,223.33
821.5000,227.399
822.0000,225.882
822.5000,224.734
823.0000,230.985
823.5000,226.402
824.0000,222.81
824.5000,224.745
825.0000,224.449
825.5000,227.806
826.0000,226.32
826.5000,221.252
827.0000,225.789
827.5000,223.814
828.0000,229.066
828.5000,227.751
829.0000,220.471
829.5000,224.9
830.0000,222.967
830.5000,220.452
831.0000,224.849
831.5000,227.401
832.0000,223.165
832.5000,222.855
833.0000,230.539
833.5000,226.349
834.0000,222.248
834.5000,222.95
835.0000,231.651
835.5000,231.769
836.0000,227.273
836.5000,229.882
837.0000,228.579
837.5000,224.643
838.0000,223.581
838.5000,228.463
839.0000,222.475
839.5000,228.516
840.0000,235.221
840.5000,228.609
841.0000,223.481
841.5000,228.898
842.0000,230.872
842.5000,226.425
843.0000,224.937
843.5000,223.387
844.0000,238.582
844.5000,224.961
845.0000,226.638
845.5000,231.258
846.0000,223.001
846.5000,227.958
847.0000,226.145
847.5000,227.008
848.0000,225.633
848.5000,228.078
849.0000,228.999
849.5000,225.899
850.0000,226.171
850.5000,227.261
851.0000,224.369
851.5000,231.069
852.0000,228.657
852.5000,223.752
853.0000,228.995
853.5000,226.502
854.0000,222.286
854.5000,230.519
855.0000,229.351
855.5000,224.222
856.0000,231.496
856.5000,227.566
857.0000,226.105
857.5000,231.113
858.0000,228.456
858.5000,1424.87
859.0000,224.883
859.5000,230.239
860.0000,224.96
860.5000,235.463
861.0000,223.67
861.5000,227.7
862.0000,231.812
862.5000,227.839
863.0000,229.387
863.5000,233.172
864.0000,226.306
864.5000,226.858
865.0000,224.646
865.5000,230.857
866.0000,309.753
866.5000,234.035
867.0000,802.343
867.5000,228.442
868.0000,1104.67
868.5000,223.893
869.0000,225.511
869.5000,884.284
870.0000,226.101
870.5000,223.031
871.0000,224.827
871.5000,224.504
872.0000,229.062
872.5000,259.252
873.0000,226.818
873.5000,497.42
874.0000,230.296
874.5000,484.916
875.0000,226.633
875.5000,234.92
876.0000,592.141
876.5000,228.86
877.0000,231.671
877.5000,230.527
878.0000,290.775
878.5000,708.688
879.0000,225.275
879.5000,230.372
880.0000,226.624
880.5000,234.659
881.0000,463.686
881.5000,235.991
882.0000,225.4
882.5000,224.678
883.0000,225.389
883.5000,228.399
884.0000,595.077
884.5000,229.465
885.0000,1623.19
885.5000,234.106
886.0000,359.265
886.5000,227.967
887.0000,225.231
887.5000,315.876
888.0000,1204.07
888.5000,229.691
889.0000,225.297
889.5000,231.033
890.0000,227.848
890.5000,229.446
891.0000,231.599
891.5000,581.297
892.0000,229.234
892.5000,563.471
893.0000,632.045
893.5000,232.707
894.0000,230.971
894.5000,233.103
895.0000,233.458
895.5000,232.115
896.0000,225.888
896.5000,226.994
897.0000,233.171
897.5000,227.992
898.0000,224.551
898.5000,234.21
899.0000,239.714
899.5000,437.317
900.0000,224.743
900.5000,227.327
901.0000,228.169
901.5000,226.342
902.0000,225.334
902.5000,234.066
903.0000,225.549
903.5000,654.789
904.0000,233.469
904.5000,231.215
905.0000,1161.6
905.5000,240.152
906.0000,224.94
906.5000,227.184
907.0000,228.036
907.5000,227.401
908.0000,228.855
908.5000,234.302
909.0000,330.928
909.5000,744.872
910.0000,226.615
910.5000,227.335
911.0000,225.064
911.5000,226.134
912.0000,225.633
912.5000,228.752
913.0000,228.943
913.5000,229.268
914.0000,224.742
914.5000,226.755
915.0000,226.545
915.5000,224.64
916.0000,225.478
916.5000,226.88
917.0000,223.793
917.5000,226.082
918.0000,227.26
918.5000,229.628
919.0000,227.971
919.5000,224.73
920.0000,228.857
920.5000,227.937
921.0000,233.658
921.5000,224.439
922.0000,229.967
922.5000,227.422
923.0000,226.108
923.5000,227.322
924.0000,224.509
924.5000,225.392
925.0000,231.078
925.5000,229.21
926.0000,228.88
926.5000,224.303
927.0000,227.526
927.5000,228.824
928.0000,227.671
928.5000,225.496
929.0000,223.326
929.5000,225.717
930.0000,231.066
930.5000,227.187
931.0000,232.936
931.5000,226.712
932.0000,234.045
932.5000,229.294
933.0000,228.736
933.5000,226.026
934.0000,227.498
934.5000,226.122
935.0000,226.835
935.5000,227.131
936.0000,229.256
936.5000,230.146
937.0000,227.203
937.5000,229.361
938.0000,229.22
938.5000,227.444
939.0000,225.534
939.5000,229.617
940.0000,230.821
940.5000,226.041
941.0000,225.295
941.5000,229.161
942.0000,230.872
942.5000,229.478
943.0000,230.544
943.5000,227.223
944.0000,229.859
944.5000,231.995
945.0000,230.016
945.5000,229.716
946.0000,227.623
946.5000,229.162
947.0000,229.99
947.5000,227.666
948.0000,228.195
948.5000,233.987
949.0000,228.699
949.5000,231.913
950.0000,226.754
950.5000,229.561
951.0000,226.753
951.5000,229.46
952.0000,225.682
952.5000,234.029
953.0000,233.255
953.5000,226.365
954.0000,230.217
954.5000,228.167
955.0000,239.193
955.5000,230.484
956.0000,230.327
956.5000,226.138
957.0000,226.931
957.5000,232.65
958.0000,225.934
958.5000,230.364
959.0000,232.877
959.5000,228.203
960.0000,227.189
960.5000,230.876
961.0000,231.796
961.5000,225.866
962.0000,230.245
962.5000,230.137
963.0000,233.668
963.5000,232.205
964.0000,232.277
964.5000,227.099
965.0000,228.464
965.5000,230.448
966.0000,227.855
966.5000,230.595
967.0000,225.681
967.5000,229.353
968.0000,229.036
968.5000,229.041
969.0000,229.363
969.5000,234.031
970.0000,227.639
970.5000,231.777
971.0000,226.039
971.5000,230.88
972.0000,240.022
972.5000,229.878
973.0000,233.553
973.5000,229.083
974.0000,229.259
974.5000,230.567
975.0000,227.577
975.5000,235.002
976.0000,228.034
976.5000,226.529
977.0000,226.886
977.5000,226.627
978.0000,231.446
978.5000,231.723
979.0000,229.342
979.5000,226.56
980.0000,229.326
980.5000,228.654
981.0000,233.47
981.5000,232.839
982.0000,227.881
982.5000,234.523
983.0000,225.732
983.5000,230.404
984.0000,231.011
984.5000,227.231
985.0000,229.043
985.5000,228.31
986.0000,231.897
986.5000,226.719
987.0000,230.273
987.5000,240.511
988.0000,233.486
988.5000,226.86
989.0000,226.621
989.5000,227.212
990.0000,226.74
990.5000,231.363
991.0000,234.971
991.5000,227.152
992.0000,227.722
992.5000,232.397
993.0000,228.431
993.5000,224.489
994.0000,233.023
994.5000,229.734
995.0000,230.977
995.5000,230.668
996.0000,227.778
996.5000,224.932
997.0000,235.984
997.5000,226.329
998.0000,232.581
998.5000,228.5
999.0000,229.178
999.5000,235.349
1000.0000,228.696
1000.5000,233.195
1001.0000,226.899
1001.5000,231.942
1002.0000,230.658
1002.5000,233.374
1003.0000,232.976
1003.5000,228.172
1004.0000,231.986
1004.5000,227.738
1005.0000,229.054
1005.5000,228.898
1006.0000,233.642
1006.5000,238.792
1007.0000,229.863
1007.5000,231.995
1008.0000,231.247
1008.5000,229.967
1009.0000,230.585
1009.5000,231.608
1010.0000,233.493
1010.5000,229.614
1011.0000,228.585
1011.5000,226.365
1012.0000,238.077
1012.5000,227.781
1013.0000,227.944
1013.5000,229.811
1014.0000,231.659
1014.5000,229.694
1015.0000,232.504
1015.5000,233.419
1016.0000,229.512
1016.5000,233.411
1017.0000,231.72
1017.5000,228.993
1018.0000,226.609
1018.5000,229.372
1019.0000,232.874
1019.5000,228.217
1020.0000,235.774
1020.5000,234.072
1021.0000,227.679
1021.5000,231.265
1022.0000,226.59
1022.5000,228.336
1023.0000,226.663
1023.5000,227.052
1024.0000,230.408
1024.5000,231.825
1025.0000,232.182
1025.5000,235.263
1026.0000,226.231
1026.5000,228.559
1027.0000,225.853
1027.5000,231.939
1028.0000,230.359
1028.5000,228.228
1029.0000,226.685
1029.5000,230.03
1030.0000,236.177
1030.5000,231.522
1031.0000,232.103
1031.5000,229.962
1032.0000,228.23
1032.5000,227.06
1033.0000,230.919
1033.5000,231.378
1034.0000,229.58
1034.5000,231.975
1035.0000,228.439
1035.5000,233.346
1036.0000,239.025
1036.5000,232.307
1037.0000,232.012
1037.5000,228.966
1038.0000,229.117
1038.5000,227.743
1039.0000,241.588
1039.5000,230.975
1040.0000,232.578
1040.5000,232.406
1041.0000,232.64
1041.5000,237.865
1042.0000,229.646
1042.5000,230.715
1043.0000,248.397
1043.5000,233.422
1044.0000,234.222
1044.5000,227.613
1045.0000,230.961
1045.5000,228.682
1046.0000,236.564
1046.5000,228.9
1047.0000,228.242
1047.5000,244.361
1048.0000,233.848
1048.5000,229.38
1049.0000,237.012
1049.5000,227.365
1050.0000,229.992
1050.5000,230.641
1051.0000,229.323
1051.5000,233.206
1052.0000,233.933
1052.5000,229.307
1053.0000,234.149
1053.5000,231.34
1054.0000,228.666
1054.5000,230.311
1055.0000,231.958
1055.5000,233.38
1056.0000,230.819
1056.5000,230.604
1057.0000,235.447
1057.5000,238.889
1058.0000,229.094
1058.5000,234.231
1059.0000,229.624
1059.5000,231.614
1060.0000,227.769
1060.5000,229.375
1061.0000,232.591
1061.5000,228.763
1062.0000,234.746
1062.5000,230.193
1063.0000,231.892
1063.5000,230.739
1064.0000,228.872
1064.5000,230.549
1065.0000,227.548
1065.5000,229.114
1066.0000,232.238
1066.5000,230.469
1067.0000,232.606
1067.5000,233.422
1068.0000,235.251
1068.5000,241.082
1069.0000,229.607
1069.5000,232.145
1070.0000,231.995
1070.5000,230.993
1071.0000,227.838
1071.5000,230.07
1072.0000,237.077
1072.5000,233.891
1073.0000,229.029
1073.5000,231.466
1074.0000,230.968
1074.5000,234.426
1075.0000,231.338
1075.5000,229.263
1076.0000,240.272
1076.5000,232.862
1077.0000,231.183
1077.5000,230.267
1078.0000,232.107
1078.5000,231.399
1079.0000,230.26
1079.5000,230.645
1080.0000,230.708
1080.5000,230.586
1081.0000,232.215
1081.5000,231.09
1082.0000,229.82
1082.5000,230.891
1083.0000,231.16
1083.5000,230.84
1084.0000,231.627
1084.5000,244.246
1085.0000,228.762
1085.5000,229.811
1086.0000,238.026
1086.5000,231.579
1087.0000,232.124
1087.5000,228.487
1088.0000,236.412
1088.5000,230.46
1089.0000,231.155
1089.5000,231.312
1090.0000,229.979
1090.5000,231.644
1091.0000,232.307
1091.5000,230.243
1092.0000,231.518
1092.5000,237.581
1093.0000,229.897
1093.5000,237.05
1094.0000,235.329
1094.5000,235.255
1095.0000,232.934
1095.5000,232.755
1096.0000,232.311
1096.5000,234.753
1097.0000,230.908
1097.5000,227.204
1098.0000,233.792
1098.5000,236.161
1099.0000,230.709
1099.5000,239.96
1100.0000,229.431
1100.5000,234.486
1101.0000,233.982
1101.5000,236.236
1102.0000,226.882
1102.5000,229.623
1103.0000,234.38
1103.5000,228.041
1104.0000,231.116
1104.5000,236.046
1105.0000,233.8
1105.5000,234.213
1106.0000,231.69
1106.5000,239.962
1107.0000,231.951
1107.5000,231.013
1108.0000,229.924
1108.5000,232.242
1109.0000,229.895
1109.5000,234.71
1110.0000,231.019
1110.5000,237.734
1111.0000,230.015
1111.5000,229.894
1112.0000,235.362
1112.5000,232.119
1113.0000,235.779
1113.5000,233.696
1114.0000,231.773
1114.5000,231.985
1115.0000,233.345
1115.5000,228.593
1116.0000,231.46
1116.5000,231.554
1117.0000,236.911
1117.5000,229.294
1118.0000,227.972
1118.5000,232.162
1119.0000,231.241
1119.5000,232.711
1120.0000,231.623
1120.5000,234.325
1121.0000,232.971
1121.5000,236.551
1122.0000,232.286
1122.5000,234.019
1123.0000,235.02
1123.5000,228.844
1124.0000,235.382
1124.5000,230.996
1125.0000,232.639
1125.5000,235.389
1126.0000,231.28
1126.5000,234.466
1127.0000,232.867
1127.5000,235.246
1128.0000,230.445
1128.5000,235.635
1129.0000,231.267
1129.5000,231.357
1130.0000,245.915
1130.5000,234.889
1131.0000,234.889
1131.5000,234.027
1132.0000,232.346
1132.5000,233.075
1133.0000,233.786
1133.5000,231.052
1134.0000,234.868
1134.5000,230.498
1135.0000,237.055
1135.5000,232.81
1136.0000,234.975
1136.5000,235.152
1137.0000,234.846
1137.5000,230.506
1138.0000,233.333
1138.5000,238.354
1139.0000,243.811
1139.5000,231.661
1140.0000,235.357
1140.5000,234.416
1141.0000,238.413
1141.5000,237.981
1142.0000,232.61
1142.5000,237.191
1143.0000,232.283
1143.5000,234.197
1144.0000,240.351
1144.5000,236.378
1145.0000,236.697
1145.5000,236.241
1146.0000,236.141
1146.5000,236.822
1147.0000,234.97
1147.5000,244.898
1148.0000,233.274
1148.5000,239.756
1149.0000,237.9
1149.5000,234.494
1150.0000,237.754
1150.5000,235.566
1151.0000,246.13
1151.5000,233.657
1152.0000,238.378
1152.5000,231.321
1153.0000,239.901
1153.5000,236.86
1154.0000,234.093
1154.5000,237.92
1155.0000,234.535
1155.5000,236.976
1156.0000,234.467
1156.5000,237.268
1157.0000,235.53
1157.5000,237.214
1158.0000,236.401
1158.5000,234.331
1159.0000,233.966
1159.5000,245.223
1160.0000,239.94
1160.5000,234.23
1161.0000,235.116
1161.5000,234.24
1162.0000,232.234
1162.5000,240.924
1163.0000,235.311
1163.5000,233.804
1164.0000,243.555
1164.5000,239.396
1165.0000,233.868
1165.5000,241.781
1166.0000,234.88
1166.5000,236.488
1167.0000,236.624
1167.5000,234.456
1168.0000,235.73
1168.5000,234.539
1169.0000,237.912
1169.5000,239.831
1170.0000,243.027
1170.5000,232.388
1171.0000,237.541
1171.5000,240.312
1172.0000,235.471
1172.5000,252.068
1173.0000,235.834
1173.5000,238.905
1174.0000,235.507
1174.5000,235.496
1175.0000,236.953
1175.5000,241.992
1176.0000,232.971
1176.5000,235.75
1177.0000,235.513
1177.5000,237.471
1178.0000,233.328
1178.5000,232.576
1179.0000,235.935
1179.5000,235.269
1180.0000,243.427
1180.5000,239.232
1181.0000,234.879
1181.5000,239.53
1182.0000,237.158
1182.5000,241.792
1183.0000,236.863
1183.5000,237.523
1184.0000,235.342
1184.5000,234.275
1185.0000,237.634
1185.5000,242.362
1186.0000,235.266
1186.5000,235.328
1187.0000,238.453
1187.5000,233.347
1188.0000,235.093
1188.5000,248.372
1189.0000,237.525
1189.5000,234.511
1190.0000,238.616
1190.5000,232.39
1191.0000,247.291
1191.5000,237.951
1192.0000,236.984
1192.5000,239.148
1193.0000,236.763
1193.5000,235.324
1194.0000,234.639
1194.5000,234.643
1195.0000,237.06
1195.5000,240.305
1196.0000,238.24
1196.5000,236.066
1197.0000,239.145
1197.5000,235.6
1198.0000,237.222
1198.5000,235.383
1199.0000,234.779
1199.5000,240.053
1200.0000,238.368

##### Extended Information
[Comments]
Sample name
Comment
User
Division
Company,HUJI

[Detailed Information]
Creation date,10/6/2016 2:32 PM

Data array type,Linear data array
Horizontal axis,Time [sec]
Vertical axis,Int.
Start,0 sec
End,1200 sec
Data interval,0.5 sec
Data points,2401    

[Measurement Information]
Model name,FP-8500
Serial No.,C021361452
  Ex filter holder,None
  Em filter holder,None

Accessory,PCT-818
Accessory S/N,A001661529
  Cell,1
  Temperature,25.00 C
  Control sensor,Holder
  Monitor sensor,Holder
  Start mode,Across the target temperature 2 times

Accessory,FDP-837
Accessory S/N,A004061537
  Polarizer,Ex 0 degree, Em 0 degree

Measurement date,10/6/2016 2:32 PM

Parameter file,C:\Users\OWNER\Desktop\Oded\Programs\Chemical Aggregation 25oC 1200s.fptm
Photometric mode,Em intensity
Ex bandwidth,2.5 nm
Em bandwidth,5 nm
Response,0.5 sec
Sensitivity,Low
Measurement range,0 - 1200 sec
Data interval,0.5 sec
Ex wavelength,360.0 nm
Em wavelength,360.0 nm
Intensity normalization,Off
Blank correction,Off
Auto gain,Off
Shutter control,Off
Light source,Xe lamp
Filter,Use

